Folder: awesome_pxrd2xtal_generation/exp_pxrd_data/decifer/CeO2

Note: README.md
<img src="assets/logo.png" width="300">

#

[![Awesome](https://awesome.re/badge.svg)](https://awesome.re)
[![License: CC BY 4.0](https://img.shields.io/badge/License-CC_BY_4.0-lightgrey.svg)](LICENSE)



Powder X-ray diffraction (PXRD) structure determination is an ill-posed inverse problem traditionally addressed through indexing and Rietveld refinement. Recent generative models offer a revolutionary approach by directly mapping 1D diffraction patterns to 3D crystal structures. This repository curates open-source models and related resources for the PXRD to crystal structure generation task.

## AI-assisted Curation

This repository adopts a new "AI-assisted" approach to content creation, hoping to overcome the limitations of traditional human-based research information collection. We will employ advanced reasoning models and AI research tools to generate comprehensive content, followed by careful human review and refinement. All AI-generated responses, procedures, and modifications will be documented in a transparent protocol along with each update.

## Beyond Curation

Unlike typical "awesome" repositories that merely list resources, we try to solve the "last mile delivery" issue by providing inference scripts. Currently some tested inference scripts are available for selected models in the `inference` folder:

| Model | Local Inference | Cloud Inference | Utils/Support | Environment |
|-------|-----------------|-----------------|---------------|-------------|
| **Uni3DAR** | `uni3dar_inference.py` | `uni3dar_modal.py` | N/A | `uni3dar_env.yml` |
| **PXRDnet** | `pxrdnet_inference.py` | `pxrdnet_modal.py` | N/A | `pxrdnet_env.yml` |
| **deCIFer** | `decifer_inference.py` | N/A | `decifer_utils.py` | `decifer_env.yml` |
| **Crystalyze** | `crystalyze_inference.py` | N/A | `crystalyze_utils.py` | `crystalyze_env.yml` |
| **DiffractGPT** | `diffractgpt_inference.py` | `diffractgpt_modal.py` |  N/A |  N/A |

Additionally, `parse_cifs.py` in the `utils` folder provides general utilities for parsing and processing CIF files that contains experimental PXRD patterns across different models. We are planning to add more utility scripts in the future. Besides, we are investigating using latest automatic coding agents to update/develop those inference scripts automatically.


## Models

| Model           | Year | Method / Architecture                               | Reported Performance†            | Paper                                             | Implementation                                                 |
| --------------- | ---- | --------------------------------------------------- | -------------------------------- | ------------------------------------------------- | -------------------------------------------------------------- |
| **DeepStruc**   | 2023 | Conditional VAE on PDF data                         | Correct for 7 nanoparticle types | [*Digit. Discov.*](https://pubs.rsc.org/en/content/articlelanding/2023/dd/d2dd00086e)             

File: boroglass_0p8_empty_VCT_72h.xy
2.99452 4.42735 0.0156129
3.37152 4.82911 0.0163059
3.74852 5.56247 0.0175003
4.12552 6.43712 0.018826
4.50252 6.92196 0.0195221
4.87952 7.20713 0.0199202
5.25652 7.5513 0.0203903
5.63352 8.11854 0.0211422
6.01052 8.83425 0.0220545
6.38752 9.79646 0.0232245
6.76452 10.9497 0.0245535
7.14152 12.0414 0.0257484
7.51852 12.7307 0.0264751
7.89552 12.6994 0.0264426
8.27252 12.0896 0.0257999
8.64952 11.0943 0.0247151
9.02652 9.97284 0.0234326
9.40352 9.03088 0.0222986
9.78052 8.12783 0.0211543
10.1575 7.39227 0.0201744
10.5345 6.69183 0.0191948
10.9115 6.08254 0.0183001
11.2885 5.60738 0.0175708
11.6655 5.19258 0.0169084
12.0425 4.85184 0.0163442
12.4195 4.54825 0.0158246
12.7965 4.28392 0.0153579
13.1735 4.01729 0.0148723
13.5505 3.83206 0.0145254
13.9275 3.66224 0.0141999
14.3045 3.59567 0.0140702
14.6815 3.62392 0.0141254
15.0585 3.64071 0.0141581
15.4355 3.64083 0.0141583
15.8125 3.61914 0.0141161
16.1895 3.57146 0.0140228
16.5665 3.50772 0.0138971
16.9435 3.39105 0.013664
17.3205 3.26662 0.013411
17.6975 3.15767 0.0131855
18.0745 3.07021 0.0130016
18.4515 3.00446 0.0128616
18.8285 2.97068 0.0127891
19.2055 2.94096 0.012725
19.5825 2.90025 0.0126366
19.9595 2.93325 0.0127083
20.3365 2.91908 0.0126775
20.7135 2.94161 0.0127264
21.0905 2.96452 0.0127758
21.4675 2.99573 0.0128429
21.8445 3.02967 0.0129154
22.2215 3.02825 0.0129124
22.5985 3.01907 0.0128928
22.9755 3.00618 0.0128653
23.3525 2.97557 0.0127996
23.7295 2.94021 0.0127233
24.1065 2.89948 0.0126349
24.4835 2.87596 0.0125835
24.8605 2.84699 0.01252
25.2375 2.8293 0.0124811
25.6145 2.80517 0.0124277
25.9915 2.77638 0.0123638
26.3685 2.73442 0.01227
26.7455 2.67352 0.0121326
27.1225 2.61241 0.0119931
27.4995 2.50811 0.0117513
27.8765 2.3723 0.0114287
28.2535 2.22026 0.0110564
28.6305 2.07961 0.0107005
29.0075 1.94768 0.0103555
29.3845 1.85804 0.0101144
29.7615 1.7798 0.00989913
30.1385 1.71657 0.0097217
30.5155 1.66914 0.00958647
30.8925 1.6287 0.00946961
31.2695 1.60048 0.00938721
31.6465 1.58368 0.00933781
32.0235 1.56326 0.00927741
32.4005 1.55757 0.00926051
32.7775 1.53724 0.0091999
33.1545 1.4968 0.00907808
33.5315 1.48256 0.0090348
33.9085 1.46854 0.00899196
34.2855 1.44895 0.00893179
34.6625 1.40301 0.00878906
35.0395 1.39239 0.00875573
35.4165 1.34533 0.00860648
35.7935 1.3175 0.008517
36.1705 1.29399 0.00844066
36.5475 1.27941 0.00839298
36.9245 1.24249 0.00827102
37.3015 1.2289 0.00822566
37.6785 1.20416 0.00814241
38.0555 1.19171 0.00810024
38.4325 1.16446 0.00800708
38.8095 1.15887 0.00798784
39.1865 1.17069 0.00802848
39.5635 1.16609 0.00801266
39.9405 1.16952 0.00802446
40.3175 1.17471 0.00804225
40.6945 1.16341 0.00800348
41.0715 1.1799 0.00805999
41.4485 1.1815 0.00806546
41.8255 1.17282 0.00803579
42.2025 1.15457 0.007973
42.5795 1.16046 0.0079933
42.9565 1.16293 0.00800182
43.3335 1.13387 0.00790119
43.7105 1.12441 0.00786819
44.0875 1.11435 0.00783291
44.4645 1.09504 0.00776473
44.8415 1.0792 0.00770836
45.2185 1.05394 0.00761762
45.5955 1.04991 0.00760306
45.9725 1.02945 0.0075286
46.3495 1.00587 0.00744188
46.7265 0.992732 0.00739312
47.1035 0.973284 0.00732034
47.4805 0.951191 0.00723678
47.8575 0.918365 0.00711081
48.2345 0.919771 0.00711626
48.6115 0.89466 0.00701844
48.9885 0.895756 0.00702274
49.3655 0.870016 0.0069211
49.7425 0.857894 0.00687272
50.1195 0.836219 0.00678534
50.4965 0.825739 0.00674269
50.8735 0.804347 0.00665478
51.2505 0.793104 0.0066081
51.6275 0.782693 0.00656459
52.0045 0.770442 0.00651301
52.3815 0.759541 0.00646677
52.7585 0.76426 0.00648683
53.1355 0.739112 0.00637921
53.5125 0.73499 0.00636139
53.8895 0.722783 0.00630835
54.2665 0.721425 0.00630242
54.6435 0.710164 0.00625304
55.0205 0.701356 0.00429467
55.3975 0.688086 0.00425384
55.7745 0.685865 0.00424696
56.1515 0.676144 0.00421677
56.5285 0.660465 0.00416759
56.9055 0.647346 0.00412599
57.2825 0.649688 0.00413345
57.6595 0.635831 0.00408913
58.0365 0.628453 0.00406534
58.4135 0.623726 0.00405002
58.7905 0.618382 0.00403263
59.1675 0.608714 0.00400098
59.5445 0.601267 0.00397643
59.9215 0.598594 0.00396759
60.2985 0.590825 0.00394175
60.6755 0.585123 0.00392269
61.0525 0.57747 0.00389693
61.4295 0.567439 0.00386294
61.8065 0.567624 0.00386359
62.1835 0.564008 0.00385126
62.5605 0.563749 0.00385038
62.9375 0.557082 0.00382754
63.3145 0.549016 0.00379973
63.6915 0.549845 0.00380258
64.0685 0.54484 0.00378525
64.4455 0.538527 0.00376326
64.8225 0.541025 0.00377197
65.1995 0.542114 0.00377577
65.5765 0.531729 0.00373943
65.9535 0.533903 0.00374706
66.3305 0.521162 0.00370208
66.7075 0.521341 0.00370272
67.0845 0.521241 0.00370237
67.4615 0.516765 0.00368643
67.8385 0.518 0.00369084
68.2155 0.516221 0.00368448
68.5925 0.501518 0.00363164
68.9695 0.502875 0.00363655
69.3465 0.497053 0.00361544
69.7235 0.494289 0.00360538
70.1005 0.489872 0.00358922
70.4775 0.48291 0.0035636
70.8545 0.479191 0.00354989
71.2315 0.47309 0.00352722
71.6085 0.467005 0.00350445
71.9855 0.464568 0.0034953
72.3625 0.458572 0.00347266
72.7395 0.454923 0.00345883
73.1165 0.44502 0.00342097
73.4935 0.440541 0.00340372
73.8705 0.439557 0.00339991
74.2475 0.433402 0.00337602
74.6245 0.434108 0.00337876
75.0015 0.42922 0.0033597
75.3785 0.423645 0.0033378
75.7555 0.421487 0.00332929
76.1325 0.419879 0.00332294
76.5095 0.409808 0.00328284
76.8865 0.410887 0.00328716
77.2635 0.412895 0.00329518
77.6405 0.407237 0.00327253
78.0175 0.404576 0.00326182
78.3945 0.404493 0.00326149
78.7715 0.40161 0.00324985
79.1485 0.395113 0.00322344
79.5255 0.399127 0.00323978
79.9025 0.393353 0.00321624
80.2795 0.388022 0.00319439
80.6565 0.390233 0.00320348
81.0335 0.394095 0.00321928
81.4105 0.387759 0.00319331
81.7875 0.386756 0.00318917
82.1645 0.383293 0.00317487
82.5415 0.380574 0.00316358
82.9185 0.380168 0.00316188
83.2955 0.380278 0.00316235
83.6725 0.37726 0.00314978
84.0495 0.378013 0.00315292
84.4265 0.373997 0.00313611
84.8035 0.374707 0.0031391
85.1805 0.371114 0.00312401
85.5575 0.365433 0.00310001
85.9345 0.370242 0.00312035
86.3115 0.368701 0.00311385
86.6885 0.370488 0.00312138
87.0655 0.362711 0.00308845
87.4425 0.367257 0.00310774
87.8195 0.363552 0.00309203
88.1965 0.367358 0.00310816
88.5735 0.362859 0.00308908
88.9505 0.361607 0.00308374
89.3275 0.36139 0.00308282
89.7045 0.360483 0.00307894
90.0815 0.359343 0.00307407
90.4585 0.358999 0.00307258
90.8355 0.355259 0.00305656
91.2125 0.359933 0.0030766
91.5895 0.362848 0.003089
91.9665 0.357536 0.00306634
92.3435 0.354528 0.00305341
92.7205 0.355591 0.00305799
93.0975 0.356733 0.00306289
93.4745 0.359296 0.00307388
93.8515 0.354419 0.00305294
94.2285 0.362147 0.00308603
94.6055 0.357495 0.00306616
94.9825 0.357218 0.00306496
95.3595 0.351625 0.00304088
95.7365 0.356391 0.00306142
96.1135 0.35675 0.00306297
96.4905 0.357305 0.00306534
96.8675 0.353799 0.00305024
97.2445 0.359332 0.00307403
97.6215 0.3545 0.00305329
97.9985 0.355649 0.00305823
98.3755 0.35627 0.0030609
98.7525 0.361091 0.00308154
99.1295 0.356514 0.00306195
99.5065 0.353935 0.00305085
99.8835 0.353334 0.00304826
100.261 0.357155 0.0030647
100.638 0.356846 0.00306337
101.015 0.347772 0.00302418
101.392 0.357508 0.00306621
101.769 0.354254 0.00305223
102.146 0.352332 0.00304394
102.523 0.350082 0.00303421
102.9 0.352364 0.00304408
103.277 0.353967 0.003051
103.654 0.356093 0.00306014
104.031 0.355798 0.00305888
104.408 0.354078 0.00305147
104.785 0.352848 0.00304616
105.162 0.353176 0.00304756
105.539 0.358494 0.00307044
105.916 0.35381 0.00305032
106.293 0.356084 0.0030601
106.67 0.358563 0.00307074
107.047 0.356982 0.00306396
107.424 0.357367 0.00306561
107.801 0.355979 0.00305965
108.178 0.354492 0.00305326
108.555 0.35785 0.00306764
108.932 0.360361 0.00307842
109.309 0.355241 0.00305647
109.686 0.361689 0.0030841
109.976 0.362947 0.00308945