Folder: awesome_pxrd2xtal_generation/exp_pxrd_data/decifer/Fe2O3

Note: README.md
<img src="assets/logo.png" width="300">

#

[![Awesome](https://awesome.re/badge.svg)](https://awesome.re)
[![License: CC BY 4.0](https://img.shields.io/badge/License-CC_BY_4.0-lightgrey.svg)](LICENSE)



Powder X-ray diffraction (PXRD) structure determination is an ill-posed inverse problem traditionally addressed through indexing and Rietveld refinement. Recent generative models offer a revolutionary approach by directly mapping 1D diffraction patterns to 3D crystal structures. This repository curates open-source models and related resources for the PXRD to crystal structure generation task.

## AI-assisted Curation

This repository adopts a new "AI-assisted" approach to content creation, hoping to overcome the limitations of traditional human-based research information collection. We will employ advanced reasoning models and AI research tools to generate comprehensive content, followed by careful human review and refinement. All AI-generated responses, procedures, and modifications will be documented in a transparent protocol along with each update.

## Beyond Curation

Unlike typical "awesome" repositories that merely list resources, we try to solve the "last mile delivery" issue by providing inference scripts. Currently some tested inference scripts are available for selected models in the `inference` folder:

| Model | Local Inference | Cloud Inference | Utils/Support | Environment |
|-------|-----------------|-----------------|---------------|-------------|
| **Uni3DAR** | `uni3dar_inference.py` | `uni3dar_modal.py` | N/A | `uni3dar_env.yml` |
| **PXRDnet** | `pxrdnet_inference.py` | `pxrdnet_modal.py` | N/A | `pxrdnet_env.yml` |
| **deCIFer** | `decifer_inference.py` | N/A | `decifer_utils.py` | `decifer_env.yml` |
| **Crystalyze** | `crystalyze_inference.py` | N/A | `crystalyze_utils.py` | `crystalyze_env.yml` |
| **DiffractGPT** | `diffractgpt_inference.py` | `diffractgpt_modal.py` |  N/A |  N/A |

Additionally, `parse_cifs.py` in the `utils` folder provides general utilities for parsing and processing CIF files that contains experimental PXRD patterns across different models. We are planning to add more utility scripts in the future. Besides, we are investigating using latest automatic coding agents to update/develop those inference scripts automatically.


## Models

| Model           | Year | Method / Architecture                               | Reported Performance†            | Paper                                             | Implementation                                                 |
| --------------- | ---- | --------------------------------------------------- | -------------------------------- | ------------------------------------------------- | -------------------------------------------------------------- |
| **DeepStruc**   | 2023 | Conditional VAE on PDF data                         | Correct for 7 nanoparticle types | [*Digit. Discov.*](https://pubs.rsc.org/en/content/articlelanding/2023/dd/d2dd00086e)             

File: AFS012d_a850C.xy
5.00000 22.000
5.29791 18.000
5.59582 18.000
5.89373 15.000
6.19164 24.000
6.48955 34.000
6.78746 24.000
7.08537 28.000
7.38328 23.000
7.68119 26.000
7.97911 23.000
8.27702 27.000
8.57493 23.000
8.87284 24.000
9.17075 26.000
9.46866 16.000
9.76657 14.000
10.06448 17.000
10.36239 22.000
10.66030 23.000
10.95821 15.000
11.25612 20.000
11.55403 22.000
11.85194 17.000
12.14985 21.000
12.44776 21.000
12.74567 22.000
13.04358 11.000
13.34150 17.000
13.63941 27.000
13.93732 16.000
14.23523 25.000
14.53314 17.000
14.83105 11.000
15.12896 11.000
15.42687 17.000
15.72478 19.000
16.02269 13.000
16.32060 16.000
16.61851 15.000
16.91642 16.000
17.21433 15.000
17.51224 14.000
17.81015 16.000
18.10806 18.000
18.40597 21.000
18.70388 24.000
19.00180 12.000
19.29971 19.000
19.59762 17.000
19.89553 22.000
20.19344 17.000
20.49135 13.000
20.78926 16.000
21.08717 15.000
21.38508 18.000
21.68299 23.000
21.98090 16.000
22.27881 18.000
22.57672 16.000
22.87463 25.000
23.17254 22.000
23.47045 25.000
23.76836 23.000
24.06627 52.000
24.36419 16.000
24.66210 19.000
24.96001 17.000
25.25792 10.000
25.55583 24.000
25.85374 22.000
26.15165 19.000
26.44956 15.000
26.74747 20.000
27.04538 18.000
27.34329 19.000
27.64120 22.000
27.93911 27.000
28.23702 20.000
28.53493 23.000
28.83284 23.000
29.13075 23.000
29.42866 20.000
29.72657 17.000
30.02449 25.000
30.32240 24.000
30.62031 18.000
30.91822 18.000
31.21613 21.000
31.51404 23.000
31.81195 21.000
32.10986 22.000
32.40777 26.000
32.70568 40.000
33.00359 254.000
33.30150 63.000
33.59941 35.000
33.89732 29.000
34.19523 28.000
34.49314 26.000
34.79105 26.000
35.08896 40.000
35.38688 120.000
35.68479 95.000
35.98270 33.000
36.28061 22.000
36.57852 21.000
36.87643 22.000
37.17434 21.000
37.47225 28.000
37.77016 19.000
38.06807 21.000
38.36598 23.000
38.66389 25.000
38.96180 28.000
39.25971 33.000
39.55762 21.000
39.85553 31.000
40.15344 24.000
40.45135 29.000
40.74926 100.000
41.04718 30.000
41.34509 24.000
41.64300 13.000
41.94091 24.000
42.23882 34.000
42.53673 24.000
42.83464 15.000
43.13255 24.000
43.43046 35.000
43.72837 21.000
44.02628 33.000
44.32419 29.000
44.62210 29.000
44.92001 30.000
45.21792 25.000
45.51583 19.000
45.81374 20.000
46.11165 33.000
46.40957 34.000
46.70748 20.000
47.00539 28.000
47.30330 31.000
47.60121 22.000
47.89912 35.000
48.19703 34.000
48.49494 26.000
48.79285 38.000
49.09076 53.000
49.38867 185.000
49.68658 43.000
49.98449 38.000
50.28240 32.000
50.58031 33.000
50.87822 31.000
51.17613 36.000
51.47404 31.000
51.77195 34.000
52.06987 31.000
52.36778 31.000
52.66569 44.000
52.96360 43.000
53.26151 41.000
53.55942 48.000
53.85733 187.000
54.15524 124.000
54.45315 44.000
54.75106 37.000
55.04897 42.000
55.34688 50.000
55.64479 39.000
55.94270 37.000
56.24061 36.000
56.53852 53.000
56.83643 36.000
57.13434 59.000
57.43226 105.000
57.73017 65.000
58.02808 46.000
58.32599 42.000
58.62390 46.000
58.92181 40.000
59.21972 45.000
59.51763 41.000
59.81554 50.000
60.11345 45.000
60.41136 42.000
60.70927 40.000
61.00718 47.000
61.30509 50.000
61.60300 56.000
61.90091 47.000
62.19882 145.000
62.49673 137.000
62.79465 52.000
63.09256 54.000
63.39047 53.000
63.68838 100.000
63.98629 182.000
64.28420 56.000
64.58211 46.000
64.88002 51.000
65.17793 52.000
65.47584 51.000
65.77375 46.000
66.07166 41.000
66.36957 54.000
66.66748 44.000
66.96539 48.000
67.26330 46.000
67.56121 52.000
67.85912 52.000
68.15703 44.000
68.45495 24.000
68.75286 37.000
69.05077 36.000
69.34868 44.000
69.64659 57.000
69.94450 35.000
70.24241 39.000
70.54032 51.000
70.83823 34.000
71.13614 51.000
71.43405 44.000
71.73196 79.000
72.02987 84.000
72.32778 52.000
72.62569 42.000
72.92360 36.000
73.22151 41.000
73.51942 48.000
73.81734 41.000
74.11525 55.000
74.41316 42.000
74.71107 27.000
75.00898 44.000
75.30689 67.000
75.60480 51.000
75.90271 54.000
76.20062 54.000
76.49853 33.000
76.79644 33.000
77.09435 38.000
77.39226 42.000
77.69017 55.000
77.98808 40.000
78.28599 31.000
78.58390 41.000
78.88181 44.000
79.17972 42.000
79.47764 30.000
79.77555 35.000
80.02380 38.000