Folder: awesome_pxrd2xtal_generation/exp_pxrd_data/decifer/HEO

Note: README.md
<img src="assets/logo.png" width="300">

#

[![Awesome](https://awesome.re/badge.svg)](https://awesome.re)
[![License: CC BY 4.0](https://img.shields.io/badge/License-CC_BY_4.0-lightgrey.svg)](LICENSE)



Powder X-ray diffraction (PXRD) structure determination is an ill-posed inverse problem traditionally addressed through indexing and Rietveld refinement. Recent generative models offer a revolutionary approach by directly mapping 1D diffraction patterns to 3D crystal structures. This repository curates open-source models and related resources for the PXRD to crystal structure generation task.

## AI-assisted Curation

This repository adopts a new "AI-assisted" approach to content creation, hoping to overcome the limitations of traditional human-based research information collection. We will employ advanced reasoning models and AI research tools to generate comprehensive content, followed by careful human review and refinement. All AI-generated responses, procedures, and modifications will be documented in a transparent protocol along with each update.

## Beyond Curation

Unlike typical "awesome" repositories that merely list resources, we try to solve the "last mile delivery" issue by providing inference scripts. Currently some tested inference scripts are available for selected models in the `inference` folder:

| Model | Local Inference | Cloud Inference | Utils/Support | Environment |
|-------|-----------------|-----------------|---------------|-------------|
| **Uni3DAR** | `uni3dar_inference.py` | `uni3dar_modal.py` | N/A | `uni3dar_env.yml` |
| **PXRDnet** | `pxrdnet_inference.py` | `pxrdnet_modal.py` | N/A | `pxrdnet_env.yml` |
| **deCIFer** | `decifer_inference.py` | N/A | `decifer_utils.py` | `decifer_env.yml` |
| **Crystalyze** | `crystalyze_inference.py` | N/A | `crystalyze_utils.py` | `crystalyze_env.yml` |
| **DiffractGPT** | `diffractgpt_inference.py` | `diffractgpt_modal.py` |  N/A |  N/A |

Additionally, `parse_cifs.py` in the `utils` folder provides general utilities for parsing and processing CIF files that contains experimental PXRD patterns across different models. We are planning to add more utility scripts in the future. Besides, we are investigating using latest automatic coding agents to update/develop those inference scripts automatically.


## Models

| Model           | Year | Method / Architecture                               | Reported Performance†            | Paper                                             | Implementation                                                 |
| --------------- | ---- | --------------------------------------------------- | -------------------------------- | ------------------------------------------------- | -------------------------------------------------------------- |
| **DeepStruc**   | 2023 | Conditional VAE on PDF data                         | Correct for 7 nanoparticle types | [*Digit. Discov.*](https://pubs.rsc.org/en/content/articlelanding/2023/dd/d2dd00086e)             

File: crystalline_CeO2_BM31.xye
0.00205854 0 0
0.0720489 0 0
0.142039 0 0
0.21203 0 0
0.28202 26569.1 74.9872
0.35201 32835.3 32.5972
0.422001 49586.3 34.5967
0.491991 255613 68.0823
0.561981 289738 66.5971
0.631972 278620 62.263
0.701962 267023 57.7364
0.771952 267148 55.1131
0.841943 265051 52.8285
0.911933 260489 50.3475
0.981923 268856 49.2977
1.05191 265145 47.4944
1.1219 263220 45.7707
1.19189 260968 44.3168
1.26188 265282 43.4547
1.33187 267042 42.515
1.40187 263106 41.105
1.47186 265265 40.3861
1.54185 278254 40.4018
1.61184 263605 38.4934
1.68183 262184 37.6587
1.75182 262155 36.9023
1.82181 265606 36.4449
1.8918 264383 35.6737
1.96179 259892 34.7656
2.03178 265201 34.9374
2.10177 263868 36.907
2.17176 270365 38.2258
2.24175 264601 37.4358
2.31174 264881 35.1817
2.38173 266263 34.2195
2.45172 267645 33.5398
2.52171 268607 32.9115
2.5917 266867 33.5193
2.66169 265950 33.3171
2.73168 268567 32.159
2.80167 267035 31.6949
2.87166 268507 32.313
2.94165 269096 31.6295
3.01164 272720 31.0099
3.08163 270644 30.3106
3.15162 272135 29.9309
3.22161 273395 29.5446
3.2916 275339 29.2025
3.36159 273140 28.5088
3.43158 272192 28.1872
3.50158 274657 28.1139
3.57157 273530 27.5512
3.64156 270702 27.1886
3.71155 271871 27.1686
3.78154 271719 26.8378
3.85153 269287 26.466
3.92152 274259 26.4779
3.99151 269129 25.9269
4.0615 267613 25.6252
4.13149 266955 25.3743
4.20148 266818 25.1143
4.27147 271022 25.0942
4.34146 267969 24.7722
4.41145 277127 26.3536
4.48144 280348 27.0625
4.55143 309755 28.8614
4.62142 589056 37.8376
4.69141 2.20482e+06 71.7243
4.7614 332923 27.4561
4.83139 280545 24.8779
4.90138 269092 24.1148
4.97137 263557 23.6159
5.04136 262009 23.3217
5.11135 259358 22.9168
5.18134 259577 22.7022
5.25133 263469 22.6357
5.32132 300446 24.3638
5.39131 3.16953e+06 78.0559
5.4613 290876 23.548
5.53129 259684 22.0261
5.60129 255124 21.9616
5.67128 253150 21.5622
5.74127 250768 21.2333
5.81126 250601 21.0601
5.88125 252022 21.008
5.95124 251166 20.867
6.02123 249016 20.5391
6.09122 247421 20.3874
6.16121 248618 20.3138
6.2312 248115 20.1648
6.30119 247916 20.0268
6.37118 250358 20.0037
6.44117 247881 19.796
6.51116 246805 19.6342
6.58115 247551 19.5456
6.65114 247872 19.4449
6.72113 248090 19.5877
6.79112 248016 20.2403
6.86111 249170 20.6086
6.9311 247233 20.5571
7.00109 249030 19.8878
7.07108 249553 19.6287
7.14107 249453 19.4403
7.21106 249769 19.2458
7.28105 253282 19.1937
7.35104 255250 19.0856
7.42103 257305 19.0742
7.49102 272433 19.5292
7.56101 356771 22.264
7.631 5.68953e+06 88.3914
7.701 324516 21.0125
7.77099 271620 19.138
7.84098 256408 18.5323
7.91097 254865 18.3934
7.98096 251235 18.263
8.05095 251289 18.5196
8.12094 248501 18.5379
8.19093 252360 18.7579
8.26092 249767 18.7323
8.33091 251263 19.0245
8.4009 250368 19.1287
8.47089 251306 19.3375
8.54088 253950 19.5992
8.61087 254663 19.6217
8.68086 254664 19.7062
8.75085 259839 20.0212
8.82084 277913 20.8019
8.89083 398623 25.0217
8.96082 2.16889e+06 58.556
9.03081 301553 21.9427
9.1008 267409 20.7434
9.17079 260656 21.7806
9.24078 260764 22.4593
9.31077 353220 26.7243
9.38076 309773 24.033
9.45075 257973 21.6737
9.52074 251123 21.1161
9.59073 251015 20.9646
9.66072 252927 21.0241
9.73071 249917 20.9598
9.80071 249586 21.0344
9.8707 248652 21.001
9.94069 247665 20.9514
10.0107 249731 21.0654
10.0807 248391 21.0452
10.1507 247916 21.0201
10.2206 248038 21.0392
10.2906 248901 21.0988
10.3606 249047 21.114
10.4306 249243 21.155
10.5006 251012 21.2407
10.5706 250150 21.2142
10.6406 250837 21.1566
10.7106 260762 21.5086
10.7806 890917 39.722
10.8506 273522 21.9672
10.9206 252878 21.0655
10.9905 249738 20.9939
11.0605 250444 21.0323
11.1305 252484 21.1412
11.2005 251549 21.1202
11.2705 250829 21.0958
11.3405 253756 21.2378
11.4105 253962 21.2616
11.4805 255299 21.3402
11.5505 256141 22.4593
11.6205 263254 23.832
11.6904 287696 25.793
11.7604 2.24952e+06 70.4955
11.8304 292477 24.6493
11.9004 268079 23.2306
11.9704 270100 23.1479
12.0404 456356 30.0294
12.1104 329816 25.5798
12.1804 260558 22.7077
12.2504 255618 22.4392
12.3204 252498 22.1575
12.3903 252918 22.0669
12.4603 250202 21.8586
12.5303 250280 21.749
12.6003 249651 21.6407
12.6703 250163 21.6658
12.7403 252421 21.7507
12.8103 249365 21.5989
12.8803 251987 21.6913
12.9503 251456 21.6707
13.0203 253243 21.7525
13.0903 257505 21.9666
13.1602 291226 23.3581
13.2302 1.959e+06 60.5824
13.3002 282103 22.991
13.3702 257854 22.0024
13.4402 254394 21.8473
13.5102 251582 21.7204
13.5802 248386 21.5901
13.6502 250016 21.6728
13.7202 251117 21.7187
13.7902 252037 21.7633
13.8601 255191 21.8982
13.9301 263050 22.2476
14.0001 421428 30.4116
14.0701 379209 30.2503
14.1401 260155 25.9981
14.2101 254106 24.1143
14.2801 252005 23.224
14.3501 249004 22.6609
14.4201 247650 22.4232
14.4901 247967 22.36
14.56 250381 22.3788
14.63 249430 22.293
14.7 250208 22.2625
14.77 248546 22.1512
14.84 249173 22.1473
14.91 251068 22.203
14.98 249011 22.0747
15.05 250341 22.0959
15.12 252677 22.1495
15.19 255277 22.2744
15.26 384714 27.3301
15.3299 282626 23.4517
15.3999 254371 22.2388
15.4699 252278 22.1376
15.5399 250788 22.0605
15.6099 253957 22.2024
15.6799 254189 22.1955
15.7499 254528 22.2182
15.8199 257636 22.3317
15.8899 268745 22.8085
15.9599 499418 31.095
16.0298 356578 26.2556
16.0998 269404 22.8245
16.1698 289769 23.6739
16.2398 426992 28.5974
16.3098 262131 22.2805
16.3798 254737 21.8813
16.4498 253085 23.8117
16.5198 251339 24.786
16.5898 252274 25.8261
16.6598 252051 23.6952
16.7297 252067 23.215
16.7997 251789 22.9616
16.8697 253969 23.0819
16.9397 253983 22.9556
17.0097 260096 23.1501
17.0797 499255 31.933
17.1497 284662 24.0445
17.2197 255868 22.7502
17.2897 250791 22.4601
17.3597 252198 22.4595
17.4297 253067 22.473
17.4996 251087 22.3829
17.5696 252982 22.4689
17.6396 257718 22.6671
17.7096 369862 27.1224
17.7796 286322 23.8386
17.8496 257140 22.5624
17.9196 359535 26.6837
17.9896 270499 23.1251
18.0596 256213 22.5096
18.1296 250934 22.2487
18.1995 247448 22.0986
18.2695 250137 22.2027
18.3395 249983 22.1038
18.4095 252719 22.1025
18.4795 250740 21.7882
18.5495 251820 21.6841
18.6195 249103 21.4814
18.6895 253426 21.6726
18.7595 349354 25.4619
18.8295 252478 22.8675
18.8994 250727 24.379
18.9694 250420 25.605
19.0394 252587 26.5892
19.1094 253651 27.706
19.1794 256327 28.9472
19.2494 261907 30.3982
19.3194 728843 52.7098
19.3894 277780 33.8323
19.4594 265222 34.4654
19.5294 436263 46.0941
19.5994 260437 37.084
19.6693 254615 38.2619
19.7393 253343 40.0714
19.8093 250927 42.0296
19.8793 254186 44.9397
19.9493 254333 47.5722
20.0193 255061 51.0333
20.0893 254218 55.073
20.1593 252118 60.0382
20.2293 0 0
20.2993 0 0
20.3692 0 0
20.4392 0 0
20.5092 0 0
20.5792 0 0
20.5833 0 0