Folder: awesome_pxrd2xtal_generation/exp_pxrd_data/crystalyze/Ca2MnTeO6

Note: README.md
<img src="assets/logo.png" width="300">

#

[![Awesome](https://awesome.re/badge.svg)](https://awesome.re)
[![License: CC BY 4.0](https://img.shields.io/badge/License-CC_BY_4.0-lightgrey.svg)](LICENSE)



Powder X-ray diffraction (PXRD) structure determination is an ill-posed inverse problem traditionally addressed through indexing and Rietveld refinement. Recent generative models offer a revolutionary approach by directly mapping 1D diffraction patterns to 3D crystal structures. This repository curates open-source models and related resources for the PXRD to crystal structure generation task.

## AI-assisted Curation

This repository adopts a new "AI-assisted" approach to content creation, hoping to overcome the limitations of traditional human-based research information collection. We will employ advanced reasoning models and AI research tools to generate comprehensive content, followed by careful human review and refinement. All AI-generated responses, procedures, and modifications will be documented in a transparent protocol along with each update.

## Beyond Curation

Unlike typical "awesome" repositories that merely list resources, we try to solve the "last mile delivery" issue by providing inference scripts. Currently some tested inference scripts are available for selected models in the `inference` folder:

| Model | Local Inference | Cloud Inference | Utils/Support | Environment |
|-------|-----------------|-----------------|---------------|-------------|
| **Uni3DAR** | `uni3dar_inference.py` | `uni3dar_modal.py` | N/A | `uni3dar_env.yml` |
| **PXRDnet** | `pxrdnet_inference.py` | `pxrdnet_modal.py` | N/A | `pxrdnet_env.yml` |
| **deCIFer** | `decifer_inference.py` | N/A | `decifer_utils.py` | `decifer_env.yml` |
| **Crystalyze** | `crystalyze_inference.py` | N/A | `crystalyze_utils.py` | `crystalyze_env.yml` |
| **DiffractGPT** | `diffractgpt_inference.py` | `diffractgpt_modal.py` |  N/A |  N/A |

Additionally, `parse_cifs.py` in the `utils` folder provides general utilities for parsing and processing CIF files that contains experimental PXRD patterns across different models. We are planning to add more utility scripts in the future. Besides, we are investigating using latest automatic coding agents to update/develop those inference scripts automatically.


## Models

| Model           | Year | Method / Architecture                               | Reported Performance†            | Paper                                             | Implementation                                                 |
| --------------- | ---- | --------------------------------------------------- | -------------------------------- | ------------------------------------------------- | -------------------------------------------------------------- |
| **DeepStruc**   | 2023 | Conditional VAE on PDF data                         | Correct for 7 nanoparticle types | [*Digit. Discov.*](https://pubs.rsc.org/en/content/articlelanding/2023/dd/d2dd00086e)             

File: Ca2_Mn_Te_O6_raw.xy
   5     2177.2
   5.46     2071
   5.92     2093.8
   6.38     2010.3
   6.84     1947.9
   7.3     1940.7
   7.76     1848.3
   8.22     1862.1
   8.68     1801.7
   9.14     1756.6
   9.6     1688.3
   10.06     1651
   10.52     1632.4
   10.98     1554.3
   11.44     1518.3
   11.9     1478.6
   12.36     1456.6
   12.82     1370.7
   13.28     1332.4
   13.74     1330.4
   14.2     1307.9
   14.66     1269.7
   15.12     1255.2
   15.58     1232.8
   16.04     1189.9
   16.5     1163
   16.96     1090
   17.42     1088.3
   17.88     1059.3
   18.34     1055.2
   18.8     1034.5
   19.26     12927.6
   19.72     13969
   20.18     1030.3
   20.64     955.9
   21.1     925.5
   21.56     905
   22.02     963.4
   22.48     19882.8
   22.94     1079
   23.4     869
   23.86     848
   24.32     813.3
   24.78     810.2
   25.24     2722.8
   25.7     789
   26.16     775
   26.62     785.5
   27.08     776.7
   27.54     764.2
   28     775.6
   28.46     754.6
   28.92     754.6
   29.38     714
   29.84     699.7
   30.3     702.3
   30.76     675.9
   31.22     798.6
   31.68     11393.1
   32.14     46151.7
   32.6     14742
   33.06     726.2
   33.52     720.7
   33.98     645.5
   34.44     634
   34.9     644
   35.36     623.4
   35.82     693
   36.28     1495.2
   36.74     606.9
   37.2     662
   37.66     1486
   38.12     8490
   38.58     670.2
   39.04     640.6
   39.5     623
   39.96     891.4
   40.42     595.5
   40.88     608
   41.34     1266.2
   41.8     614.5
   42.26     628.1
   42.72     1370.7
   43.18     888.3
   43.64     607.3
   44.1     590.9
   44.56     574.5
   45.02     579
   45.48     672.1
   45.94     17172.4
   46.4     7241.4
   46.86     679.3
   47.32     1483.4
   47.78     639.3
   48.24     568.7
   48.7     584.4
   49.16     577.9
   49.62     1332.4
   50.08     652.4
   50.54     697.9
   51     2124.1
   51.46     759
   51.92     5594.8
   52.38     2158
   52.84     736.7
   53.3     564.3
   53.76     697.8
   54.22     592
   54.68     561
   55.14     573
   55.6     581.8
   56.06     613.2
   56.52     5019
   56.98     1986
   57.44     1354
   57.9     14689.7
   58.36     782
   58.82     631.2
   59.28     567
   59.74     557
   60.2     754
   60.66     1870.7
   61.12     689.7
   61.58     1939.7
   62.04     663.8
   62.5     582.8
   62.96     905.5
   63.42     587.2
   63.88     580
   64.34     668.3
   64.8     553.4
   65.26     564.8
   65.72     620.7
   66.18     1301.7
   66.64     612.1
   67.1     2900
   67.56     3146.6
   68.02     855.9
   68.48     1092
   68.94     578
   69.4     680.7
   69.86     719.3
   70.32     905
   70.78     2435.2
   71.24     2017
   71.7     2435.2
   72.16     731
   72.62     1331.4
   73.08     1103.8
   73.54     575.8
   74     571.2
   74.46     559
   74.92     571.6
   75.38     1223
   75.84     802.8
   76.3     2854
   76.76     4093
   77.22     1951
   77.68     728.3
   78.14     700.7
   78.6     705.5
   79.06     876.2
   79.52     757
   79.98     1917.2
   80.44     903.4
   80.9     1509.7
   81.36     1093.4
   81.82     1593.1
   82.28     741.5
   82.74     615.7
   83.2     619
   83.66     592.6
   84.12     690.3
   84.58     1388.3
   85.04     576.6
   85.5     902.8
   85.96     732.4
   86.42     1119.7
   86.88     1313.1
   87.34     676.6
   87.8     779.3
   88.26     1420.7
   88.72     855.2
   89.18     1388
   89.64     1096.6
   90.1     1340
   90.56     682.8
   91.02     716.1
   91.48     777
   91.94     603
   92.4     1869
   92.86     822
   93.32     1638
   93.78     2572
   94.24     1466
   94.7     3364
   95.16     3491
   95.62     3223.4
   96.08     1166.2
   96.54     744.8
   97     741.5
   97.46     811
   97.92     1351
   98.38     1023.4
   98.84     835.2
   99.3     704.8
   99.76     648.1
   100.22     649
   100.68     632.8
   101.14     650.7
   101.6     630.3
   102.06     641.4
   102.52     703.4
   102.98     853.4
   103.44     755
   103.9     1117.2
   104.36     765.5
   104.82     878.6
   105.28     773.4
   105.74     1153.1
   106.2     2082
   106.66     1236.6
   107.12     1289.7
   107.58     1524.1
   108.04     1043.4
   108.5     1266.2
   108.96     1006
   109.42     1246.2
   109.88     945
   110.34     726
   110.8     1620
   111.26     1260
   111.72     759
   112.18     1508.6
   112.64     2993.1
   113.1     2884.5
   113.56     1448.3
   114.02     1004
   114.48     1339.7
   114.94     989.7
   115.4     869
   115.86     924.8
   116.32     1179.3
   116.78     1272
   117.24     986.9
   117.7     939.3
   118.16     844.1
   118.62     794.5
   119.08     860.7
   119.54     990.7
   120     914.5
   120.46     848.3
   120.92     855
   121.38     869
   121.84     1282.1
   122.3     1608.3
   122.76     1259.3
   123.22     1132
   123.68     1080
   124.14     1420.7
   124.6     1986.2
   125.06     1503.4
   125.52     1066
   125.98     1208.3
   126.44     1343
   126.9     1202.8
   127.36     1289.7
   127.82     1102.1
   128.28     1647.2
   128.74     1178.3
   129.2     1037.6
   129.66     1295.5
   130.12     1195.9
   130.58     1166.6
   131.04     972.4
   131.5     1256
   131.96     1108
   132.42     840.1
   132.88     803.8
   133.34     819.3
   133.8     821
   134.26     954
   134.72     941.4
   135.18     1288
   135.64     1425
   136.1     1841.4
   136.56     1186.2
   137.02     1117.2
   137.48     1093.4
   137.94     822
   138.4     869
   138.86     1080.3
   139.32     932.4
   139.78     1057.9
   140     972.8