Folder: awesome_pxrd2xtal_generation/exp_pxrd_data/crystalyze/HoNdV2O8

Note: README.md
<img src="assets/logo.png" width="300">

#

[![Awesome](https://awesome.re/badge.svg)](https://awesome.re)
[![License: CC BY 4.0](https://img.shields.io/badge/License-CC_BY_4.0-lightgrey.svg)](LICENSE)



Powder X-ray diffraction (PXRD) structure determination is an ill-posed inverse problem traditionally addressed through indexing and Rietveld refinement. Recent generative models offer a revolutionary approach by directly mapping 1D diffraction patterns to 3D crystal structures. This repository curates open-source models and related resources for the PXRD to crystal structure generation task.

## AI-assisted Curation

This repository adopts a new "AI-assisted" approach to content creation, hoping to overcome the limitations of traditional human-based research information collection. We will employ advanced reasoning models and AI research tools to generate comprehensive content, followed by careful human review and refinement. All AI-generated responses, procedures, and modifications will be documented in a transparent protocol along with each update.

## Beyond Curation

Unlike typical "awesome" repositories that merely list resources, we try to solve the "last mile delivery" issue by providing inference scripts. Currently some tested inference scripts are available for selected models in the `inference` folder:

| Model | Local Inference | Cloud Inference | Utils/Support | Environment |
|-------|-----------------|-----------------|---------------|-------------|
| **Uni3DAR** | `uni3dar_inference.py` | `uni3dar_modal.py` | N/A | `uni3dar_env.yml` |
| **PXRDnet** | `pxrdnet_inference.py` | `pxrdnet_modal.py` | N/A | `pxrdnet_env.yml` |
| **deCIFer** | `decifer_inference.py` | N/A | `decifer_utils.py` | `decifer_env.yml` |
| **Crystalyze** | `crystalyze_inference.py` | N/A | `crystalyze_utils.py` | `crystalyze_env.yml` |
| **DiffractGPT** | `diffractgpt_inference.py` | `diffractgpt_modal.py` |  N/A |  N/A |

Additionally, `parse_cifs.py` in the `utils` folder provides general utilities for parsing and processing CIF files that contains experimental PXRD patterns across different models. We are planning to add more utility scripts in the future. Besides, we are investigating using latest automatic coding agents to update/develop those inference scripts automatically.


## Models

| Model           | Year | Method / Architecture                               | Reported Performance†            | Paper                                             | Implementation                                                 |
| --------------- | ---- | --------------------------------------------------- | -------------------------------- | ------------------------------------------------- | -------------------------------------------------------------- |
| **DeepStruc**   | 2023 | Conditional VAE on PDF data                         | Correct for 7 nanoparticle types | [*Digit. Discov.*](https://pubs.rsc.org/en/content/articlelanding/2023/dd/d2dd00086e)             

File: Ho_Nd_V2_O8_raw.xy
   10.003     463
   10.371     486
   10.739     472
   11.107     521
   11.475     528
   11.843     459
   12.211     478
   12.579     466
   12.947     522
   13.315     463
   13.683     446
   14.051     510
   14.419     484
   14.787     452
   15.155     441
   15.523     485
   15.891     451
   16.259     396
   16.627     440
   16.995     404
   17.363     460
   17.731     446
   18.099     479
   18.467     1652
   18.835     431
   19.203     491
   19.571     410
   19.939     453
   20.307     468
   20.675     481
   21.043     551
   21.411     513
   21.779     496
   22.147     519
   22.515     467
   22.883     510
   23.251     472
   23.619     505
   23.987     465
   24.355     1098
   24.723     1933
   25.091     469
   25.459     461
   25.827     472
   26.195     482
   26.563     479
   26.931     524
   27.299     444
   27.667     469
   28.035     539
   28.403     483
   28.771     531
   29.139     438
   29.507     439
   29.875     480
   30.243     435
   30.611     473
   30.979     1369
   31.347     539
   31.715     431
   32.083     477
   32.451     477
   32.819     531
   33.187     9657
   33.555     452
   33.923     466
   34.291     451
   34.659     453
   35.027     1616
   35.395     518
   35.763     442
   36.131     466
   36.499     428
   36.867     459
   37.235     437
   37.603     902
   37.971     496
   38.339     455
   38.707     508
   39.075     489
   39.443     479
   39.811     588
   40.179     618
   40.547     506
   40.915     492
   41.283     474
   41.651     432
   42.019     464
   42.387     490
   42.755     468
   43.123     420
   43.491     480
   43.859     474
   44.227     528
   44.595     606
   44.963     540
   45.331     468
   45.699     442
   46.067     455
   46.435     480
   46.803     457
   47.171     554
   47.539     3571
   47.907     546
   48.275     547
   48.643     630
   49.011     6890
   49.379     542
   49.747     485
   50.115     517
   50.483     5571
   50.851     517
   51.219     480
   51.587     650
   51.955     470
   52.323     454
   52.691     467
   53.059     503
   53.427     461
   53.795     489
   54.163     607
   54.531     497
   54.899     479
   55.267     457
   55.635     497
   56.003     463
   56.371     431
   56.739     468
   57.107     632
   57.475     508
   57.843     611
   58.211     480
   58.579     427
   58.947     462
   59.315     441
   59.683     456
   60.051     458
   60.419     436
   60.787     478
   61.155     483
   61.523     542
   61.891     821
   62.259     483
   62.627     480
   62.995     504
   63.363     464
   63.731     610
   64.099     537
   64.467     497
   64.835     485
   65.203     496
   65.571     473
   65.939     466
   66.307     1496
   66.675     483
   67.043     471
   67.411     500
   67.779     476
   68.147     482
   68.515     463
   68.883     490
   69.251     469
   69.619     2535
   69.987     494
   70.355     464
   70.723     457
   71.091     421
   71.459     486
   71.827     560
   72.195     482
   72.563     436
   72.931     671
   73.299     569
   73.667     450
   74.035     522
   74.403     480
   74.771     517
   75.139     479
   75.507     475
   75.875     603
   76.243     481
   76.611     484
   76.979     455
   77.347     482
   77.715     502
   78.083     440
   78.451     448
   78.819     400
   79.187     456
   79.555     1791
   79.923     397
   80.291     726
   80.659     543
   81.027     460
   81.395     500
   81.763     428
   82.131     418
   82.499     515
   82.867     435
   83.235     439
   83.603     799
   83.971     547
   84.339     482
   84.707     623
   85.075     507
   85.443     552
   85.811     696
   86.179     442
   86.547     480
   86.915     429
   87.283     457
   87.651     487
   88.019     457
   88.387     452
   88.755     506
   89.123     456
   89.491     431
   89.859     506
   90.227     449
   90.595     436
   90.963     467
   91.331     461
   91.699     589
   92.067     457
   92.435     434
   92.803     461
   93.171     486
   93.539     470
   93.907     461
   94.275     494
   94.643     469
   95.011     442
   95.379     496
   95.747     703
   96.115     575
   96.483     457
   96.851     510
   97.219     476
   97.587     463
   97.955     455
   98.323     492
   98.691     443
   99.059     436
   99.427     424
   99.795     413
   100.163     475
   100.531     1046
   100.899     482
   101.267     573
   101.635     506
   102.003     460
   102.371     447
   102.739     443
   103.107     441
   103.475     473
   103.843     492
   104.211     506
   104.579     621
   104.947     648
   105.315     505
   105.683     491
   106.051     443
   106.419     1046
   106.787     813
   107.155     507
   107.523     513
   107.891     433
   108.259     440
   108.627     462
   108.995     433
   109.363     461
   109.731     439
   110.099     464
   110.467     471
   110.835     470
   111.203     470
   111.571     473
   111.939     478
   112.307     1390
   112.675     494
   113.043     470
   113.411     469
   113.779     456
   114.147     448
   114.515     478
   114.883     463
   115.251     461
   115.619     582
   115.987     872
   116.355     513
   116.723     407
   117.091     735
   117.459     506
   117.827     581
   118.195     472
   118.563     483
   118.931     450
   119.299     442
   119.667     432
   119.987     403