Folder: awesome_pxrd2xtal_generation/exp_pxrd_data/crystalyze/KBi3

Note: README.md
<img src="assets/logo.png" width="300">

#

[![Awesome](https://awesome.re/badge.svg)](https://awesome.re)
[![License: CC BY 4.0](https://img.shields.io/badge/License-CC_BY_4.0-lightgrey.svg)](LICENSE)



Powder X-ray diffraction (PXRD) structure determination is an ill-posed inverse problem traditionally addressed through indexing and Rietveld refinement. Recent generative models offer a revolutionary approach by directly mapping 1D diffraction patterns to 3D crystal structures. This repository curates open-source models and related resources for the PXRD to crystal structure generation task.

## AI-assisted Curation

This repository adopts a new "AI-assisted" approach to content creation, hoping to overcome the limitations of traditional human-based research information collection. We will employ advanced reasoning models and AI research tools to generate comprehensive content, followed by careful human review and refinement. All AI-generated responses, procedures, and modifications will be documented in a transparent protocol along with each update.

## Beyond Curation

Unlike typical "awesome" repositories that merely list resources, we try to solve the "last mile delivery" issue by providing inference scripts. Currently some tested inference scripts are available for selected models in the `inference` folder:

| Model | Local Inference | Cloud Inference | Utils/Support | Environment |
|-------|-----------------|-----------------|---------------|-------------|
| **Uni3DAR** | `uni3dar_inference.py` | `uni3dar_modal.py` | N/A | `uni3dar_env.yml` |
| **PXRDnet** | `pxrdnet_inference.py` | `pxrdnet_modal.py` | N/A | `pxrdnet_env.yml` |
| **deCIFer** | `decifer_inference.py` | N/A | `decifer_utils.py` | `decifer_env.yml` |
| **Crystalyze** | `crystalyze_inference.py` | N/A | `crystalyze_utils.py` | `crystalyze_env.yml` |
| **DiffractGPT** | `diffractgpt_inference.py` | `diffractgpt_modal.py` |  N/A |  N/A |

Additionally, `parse_cifs.py` in the `utils` folder provides general utilities for parsing and processing CIF files that contains experimental PXRD patterns across different models. We are planning to add more utility scripts in the future. Besides, we are investigating using latest automatic coding agents to update/develop those inference scripts automatically.


## Models

| Model           | Year | Method / Architecture                               | Reported Performance†            | Paper                                             | Implementation                                                 |
| --------------- | ---- | --------------------------------------------------- | -------------------------------- | ------------------------------------------------- | -------------------------------------------------------------- |
| **DeepStruc**   | 2023 | Conditional VAE on PDF data                         | Correct for 7 nanoparticle types | [*Digit. Discov.*](https://pubs.rsc.org/en/content/articlelanding/2023/dd/d2dd00086e)             

File: K_Bi_O_postheat_054.xy
0.0101868  -1.00009
0.132428  1.57396
0.25467  2.06658
0.376911  3.7902
0.499153  4.62951
0.621394  4.83279
0.743636  5.07466
0.865877  5.49645
0.988119  6.15619
1.11036  13.2034
1.2326  32.0744
1.35484  68.7792
1.47708  140
1.59933  178.284
1.72157  208.52
1.84381  238.247
1.96605  262.582
2.08829  278.768
2.21053  295.202
2.33278  307.234
2.45502  318.099
2.57726  328.377
2.6995  334.041
2.82174  341.036
2.94398  345.455
3.06622  349.439
3.18847  353.867
3.31071  353.582
3.43295  357.362
3.55519  357.595
3.67743  359.366
3.79967  360.503
3.92191  361.976
4.04416  363.065
4.1664  367.03
4.28864  371.156
4.41088  352.13
4.53312  344.908
4.65536  357.53
4.77761  371.548
4.89985  1032.81
5.02209  291.991
5.14433  269.067
5.26657  280.858
5.38881  279.919
5.51105  280.271
5.6333  277.714
5.75554  299.848
5.87778  308.594
6.00002  316.831
6.12226  323.05
6.2445  330.656
6.36674  336.736
6.48899  342.704
6.61123  349.869
6.73347  361.089
6.85571  487.058
6.97795  558.404
7.10019  391.679
7.22244  386.704
7.34468  398.418
7.46692  392.646
7.58916  399.115
7.7114  405.611
7.83364  412.739
7.95588  421.272
8.07813  433.248
8.20037  455.7
8.32261  515.866
8.44485  3517.36
8.56709  838.789
8.68933  4137.11
8.81157  537.308
8.93382  486.139
9.05606  476.122
9.1783  480.136
9.30054  486.799
9.42278  504.975
9.54502  525.673
9.66726  598.949
9.78951  2921.57
9.91175  641.721
10.034  531.095
10.1562  524.78
10.2785  513.05
10.4007  511.984
10.523  513.317
10.6452  520.817
10.7674  540.099
10.8897  676.935
11.0119  728.346
11.1342  964.143
11.2564  8374.63
11.3786  728.94
11.5009  585.517
11.6231  569.033
11.7454  572.333
11.8676  579.759
11.9899  888.956
12.1121  586.878
12.2343  694.779
12.3566  746.8
12.4788  578.674
12.6011  578.71
12.7233  582.21
12.8455  583.618
12.9678  585.774
13.09  592.518
13.2123  596.884
13.3345  604.435
13.4568  613.066
13.579  629.114
13.7012  684.61
13.8235  1658.46
13.9457  943.738
14.068  668.876
14.1902  629.29
14.3124  609.573
14.4347  601.471
14.5569  604
14.6792  719.159
14.8014  583.059
14.9236  574.685
15.0459  1100.17
15.1681  682.201
15.2904  579.271
15.4126  618.532
15.5349  733.387
15.6571  638.444
15.7793  682.457
15.9016  1507.27
16.0238  888.56
16.1461  780.297
16.2683  2383.13
16.3905  834.084
16.5128  697.965
16.635  673.711
16.7573  671.005
16.8795  691.449
17.0018  1274.75
17.124  701.183
17.2462  672.689
17.3685  746.467
17.4907  784.535
17.613  680.978
17.7352  730.476
17.8574  658.906
17.9797  653.347
18.1019  650.389
18.2242  652.679
18.3464  749.679
18.4687  668.678
18.5909  650.197
18.7131  678.956
18.8354  641.238
18.9576  636.57
19.0799  634.417
19.2021  632.171
19.3243  631.639
19.4466  697.314
19.5688  736.22
19.6911  697.161
19.8133  626.425
19.9356  619.441
20.0578  615.974
20.18  621.366
20.3023  639.133
20.4245  606.961
20.5468  602.322
20.669  599.887
20.7912  607.261
20.9135  605.799
21.0357  592.861
21.158  591.061
21.2802  592.106
21.4024  688.874
21.5247  596.445
21.6469  575.154
21.7692  570.307
21.8914  568.509
22.0137  583.733
22.1359  560.961
22.2581  554.864
22.3804  552.235
22.5026  553.888
22.6249  555.567
22.7471  556.329
22.8693  555.176
22.9916  552.056
23.1138  550.696
23.2361  546.332
23.3583  543.583
23.4806  544.958
23.6028  542.837
23.725  540.051
23.8473  536.505
23.9695  534.166
24.0918  531.351
24.214  528.398
24.3362  525.828
24.4585  523.652
24.5807  520.844
24.703  518.436
24.8252  515.339
24.9475  512.712
25.0697  511.18
25.1919  507.542
25.3142  507.058
25.4364  503.207
25.5587  504.346
25.6809  506.788
25.8031  513.944
25.9254  520.887
26.0476  523.298
26.1699  523.658
26.2921  522.227
26.4143  521.163
26.5366  518.469
26.6588  518.641
26.7811  518.051
26.9033  515.672
27.0256  515.235
27.1478  512.481
27.27  512.4
27.3923  511.82
27.5145  510.183
27.6368  507.64
27.759  507.861
27.8812  505.742
28.0035  504.487
28.1257  504.496
28.248  504.671
28.3702  503.362
28.4925  502.092
28.6147  500.967
28.7369  497.524
28.8592  496.838
28.9814  496.33
29.1037  495.324
29.2259  493.245
29.3481  492.333
29.4704  491.613
29.5926  492.475
29.7149  489.037
29.8371  492.09
29.9594  490.643
30.0816  480.165
30.2038  494.815
30.3261  497.917
30.4483  505.091
30.5706  538.101
30.6928  491.622
30.7132  426.714