Folder: awesome_pxrd2xtal_generation/exp_pxrd_data/crystalyze/LuOF

Note: README.md
<img src="assets/logo.png" width="300">

#

[![Awesome](https://awesome.re/badge.svg)](https://awesome.re)
[![License: CC BY 4.0](https://img.shields.io/badge/License-CC_BY_4.0-lightgrey.svg)](LICENSE)



Powder X-ray diffraction (PXRD) structure determination is an ill-posed inverse problem traditionally addressed through indexing and Rietveld refinement. Recent generative models offer a revolutionary approach by directly mapping 1D diffraction patterns to 3D crystal structures. This repository curates open-source models and related resources for the PXRD to crystal structure generation task.

## AI-assisted Curation

This repository adopts a new "AI-assisted" approach to content creation, hoping to overcome the limitations of traditional human-based research information collection. We will employ advanced reasoning models and AI research tools to generate comprehensive content, followed by careful human review and refinement. All AI-generated responses, procedures, and modifications will be documented in a transparent protocol along with each update.

## Beyond Curation

Unlike typical "awesome" repositories that merely list resources, we try to solve the "last mile delivery" issue by providing inference scripts. Currently some tested inference scripts are available for selected models in the `inference` folder:

| Model | Local Inference | Cloud Inference | Utils/Support | Environment |
|-------|-----------------|-----------------|---------------|-------------|
| **Uni3DAR** | `uni3dar_inference.py` | `uni3dar_modal.py` | N/A | `uni3dar_env.yml` |
| **PXRDnet** | `pxrdnet_inference.py` | `pxrdnet_modal.py` | N/A | `pxrdnet_env.yml` |
| **deCIFer** | `decifer_inference.py` | N/A | `decifer_utils.py` | `decifer_env.yml` |
| **Crystalyze** | `crystalyze_inference.py` | N/A | `crystalyze_utils.py` | `crystalyze_env.yml` |
| **DiffractGPT** | `diffractgpt_inference.py` | `diffractgpt_modal.py` |  N/A |  N/A |

Additionally, `parse_cifs.py` in the `utils` folder provides general utilities for parsing and processing CIF files that contains experimental PXRD patterns across different models. We are planning to add more utility scripts in the future. Besides, we are investigating using latest automatic coding agents to update/develop those inference scripts automatically.


## Models

| Model           | Year | Method / Architecture                               | Reported Performance†            | Paper                                             | Implementation                                                 |
| --------------- | ---- | --------------------------------------------------- | -------------------------------- | ------------------------------------------------- | -------------------------------------------------------------- |
| **DeepStruc**   | 2023 | Conditional VAE on PDF data                         | Correct for 7 nanoparticle types | [*Digit. Discov.*](https://pubs.rsc.org/en/content/articlelanding/2023/dd/d2dd00086e)             

File: Lu_O_F_raw.xy
   5.011     1300
   5.453     1092
   5.89501     947
   6.33701     895
   6.77902     839
   7.22102     799
   7.66303     760
   8.10503     703
   8.54704     680
   8.98904     688
   9.43105     627
   9.87305     655
   10.31506     621
   10.75706     629
   11.19907     564
   11.64107     580
   12.08308     586
   12.52508     550
   12.96709     502
   13.40909     488
   13.8511     529
   14.2931     505
   14.73511     516
   15.17711     476
   15.61912     455
   16.06112     483
   16.50313     776
   16.94513     595
   17.38714     455
   17.82914     464
   18.27115     443
   18.71315     402
   19.15516     384
   19.59716     426
   20.03917     425
   20.48117     402
   20.92318     380
   21.36518     366
   21.80719     385
   22.24919     380
   22.6912     399
   23.1332     368
   23.57521     638
   24.01721     361
   24.45922     381
   24.90122     392
   25.34323     383
   25.78523     449
   26.22724     402
   26.66924     368
   27.11125     394
   27.55325     489
   27.99526     764
   28.43726     5071
   28.87927     3646
   29.32127     721
   29.76328     522
   30.20528     474
   30.64729     445
   31.08929     480
   31.5313     417
   31.9733     447
   32.41531     552
   32.85731     6496
   33.29932     799
   33.74132     2276
   34.18333     457
   34.62533     369
   35.06734     371
   35.50934     361
   35.95135     436
   36.39335     361
   36.83536     401
   37.27736     483
   37.71937     376
   38.16137     382
   38.60338     357
   39.04538     349
   39.48739     347
   39.92939     334
   40.3714     376
   40.8134     411
   41.25541     2819
   41.69741     647
   42.13941     448
   42.58142     403
   43.02342     432
   43.46543     353
   43.90743     340
   44.34944     350
   44.79144     328
   45.23345     303
   45.67545     353
   46.11746     323
   46.55946     425
   47.00147     1142
   47.44347     1838
   47.88548     5324
   48.32748     568
   48.76949     407
   49.21149     379
   49.6535     355
   50.0955     495
   50.53751     729
   50.97951     367
   51.42152     511
   51.86352     682
   52.30553     305
   52.74753     317
   53.18954     371
   53.63154     303
   54.07355     341
   54.51555     317
   54.95756     391
   55.39956     445
   55.84157     1018
   56.28357     4117
   56.72558     664
   57.16758     1450
   57.60959     586
   58.05159     381
   58.4936     405
   58.9356     513
   59.37761     1448
   59.81961     380
   60.26162     328
   60.70362     317
   61.14563     333
   61.58763     339
   62.02964     408
   62.47164     1121
   62.91365     581
   63.35565     366
   63.79766     367
   64.23966     518
   64.68167     749
   65.12367     318
   65.56568     445
   66.00768     362
   66.44969     296
   66.89169     290
   67.3337     321
   67.7757     274
   68.21771     304
   68.65971     414
   69.10172     709
   69.54372     388
   69.98573     348
   70.42773     367
   70.86974     429
   71.31174     399
   71.75375     409
   72.19575     434
   72.63776     665
   73.07976     374
   73.52177     337
   73.96377     328
   74.40578     316
   74.84778     345
   75.28979     389
   75.73179     883
   76.1738     826
   76.6158     669
   77.05781     624
   77.49981     761
   77.94182     351
   78.38382     601
   78.82582     826
   79.26783     558
   79.70983     335
   80.15184     363
   80.59384     464
   81.03585     375
   81.47785     312
   81.91986     374
   82.36186     308
   82.80387     317
   83.24587     350
   83.68788     440
   84.12988     348
   84.57189     322
   85.01389     323
   85.4559     308
   85.8979     318
   86.33991     318
   86.78191     294
   87.22392     291
   87.66592     343
   88.10793     700
   88.54993     763
   88.99194     380
   89.43394     387
   89.87595     399
   90.31795     308
   90.75996     338
   91.20196     426
   91.64397     365
   92.08597     389
   92.52798     420
   92.96998     451
   93.41199     392
   93.85399     474
   94.296     943
   94.738     845
   95.18001     665
   95.62201     519
   96.06402     456
   96.50602     349
   96.94803     312
   97.39003     320
   97.83204     330
   98.27404     312
   98.71605     313
   99.15805     348
   99.60006     373
   100.042     483
   100.484     649
   100.926     443
   101.368     376
   101.81     466
   102.252     683
   102.694     592
   103.1361     449
   103.5781     354
   104.02     294
   104.462     292
   104.904     295
   105.346     315
   105.788     308
   106.23     381
   106.672     400
   107.114     356
   107.556     320
   107.998     318
   108.44     397
   108.882     366
   109.324     308
   109.766     353
   110.208     337
   110.65     362
   111.092     365
   111.534     395
   111.9762     558
   112.4182     456
   112.86     405
   113.302     543
   113.744     665
   114.186     578
   114.628     517
   115.07     505
   115.512     414
   115.954     387
   116.396     409
   116.838     484
   117.28     438
   117.722     387
   118.164     408
   118.606     394
   119.048     366
   119.49     389
   119.932     338
   120.374     302
   120.816     362
   121.2583     326
   121.7003     367
   122.142     408
   122.584     354
   123.026     350
   123.468     311
   123.91     376
   124.352     316
   124.794     371
   125.236     361
   125.678     384
   126.12     428
   126.562     583
   127.004     595
   127.446     565
   127.888     505
   128.33     452
   128.772     405
   129.214     408
   129.656     427
   130.0984     428
   130.5404     427
   130.982     431
   131.424     401
   131.866     451
   132.308     419
   132.75     395
   133.192     447
   133.634     434
   134.076     471
   134.518     490
   134.96     456
   134.977     454