Folder: awesome_pxrd2xtal_generation/exp_pxrd_data/crystalyze/NaCu2P2

Note: README.md
<img src="assets/logo.png" width="300">

#

[![Awesome](https://awesome.re/badge.svg)](https://awesome.re)
[![License: CC BY 4.0](https://img.shields.io/badge/License-CC_BY_4.0-lightgrey.svg)](LICENSE)



Powder X-ray diffraction (PXRD) structure determination is an ill-posed inverse problem traditionally addressed through indexing and Rietveld refinement. Recent generative models offer a revolutionary approach by directly mapping 1D diffraction patterns to 3D crystal structures. This repository curates open-source models and related resources for the PXRD to crystal structure generation task.

## AI-assisted Curation

This repository adopts a new "AI-assisted" approach to content creation, hoping to overcome the limitations of traditional human-based research information collection. We will employ advanced reasoning models and AI research tools to generate comprehensive content, followed by careful human review and refinement. All AI-generated responses, procedures, and modifications will be documented in a transparent protocol along with each update.

## Beyond Curation

Unlike typical "awesome" repositories that merely list resources, we try to solve the "last mile delivery" issue by providing inference scripts. Currently some tested inference scripts are available for selected models in the `inference` folder:

| Model | Local Inference | Cloud Inference | Utils/Support | Environment |
|-------|-----------------|-----------------|---------------|-------------|
| **Uni3DAR** | `uni3dar_inference.py` | `uni3dar_modal.py` | N/A | `uni3dar_env.yml` |
| **PXRDnet** | `pxrdnet_inference.py` | `pxrdnet_modal.py` | N/A | `pxrdnet_env.yml` |
| **deCIFer** | `decifer_inference.py` | N/A | `decifer_utils.py` | `decifer_env.yml` |
| **Crystalyze** | `crystalyze_inference.py` | N/A | `crystalyze_utils.py` | `crystalyze_env.yml` |
| **DiffractGPT** | `diffractgpt_inference.py` | `diffractgpt_modal.py` |  N/A |  N/A |

Additionally, `parse_cifs.py` in the `utils` folder provides general utilities for parsing and processing CIF files that contains experimental PXRD patterns across different models. We are planning to add more utility scripts in the future. Besides, we are investigating using latest automatic coding agents to update/develop those inference scripts automatically.


## Models

| Model           | Year | Method / Architecture                               | Reported Performance†            | Paper                                             | Implementation                                                 |
| --------------- | ---- | --------------------------------------------------- | -------------------------------- | ------------------------------------------------- | -------------------------------------------------------------- |
| **DeepStruc**   | 2023 | Conditional VAE on PDF data                         | Correct for 7 nanoparticle types | [*Digit. Discov.*](https://pubs.rsc.org/en/content/articlelanding/2023/dd/d2dd00086e)             

File: Na_Cu2_P2_raw.xy
   10     1209
   10.42     1209
   10.84     1214
   11.26     1242
   11.68     1191
   12.1     1178
   12.52     1200
   12.94     1227
   13.36     1173
   13.78     1183
   14.2     1145
   14.62     1106
   15.04     1178
   15.46     1157
   15.88     1220
   16.3     1118
   16.72     1143
   17.14     1164
   17.56     1134
   17.98     1268
   18.4     2940
   18.82     1223
   19.24     1132
   19.66     1157
   20.08     1100
   20.5     1133
   20.92     1118
   21.34     1070
   21.76     1141
   22.18     1094
   22.6     1063
   23.02     1127
   23.44     1099
   23.86     1180
   24.28     1166
   24.7     1117
   25.12     1115
   25.54     1092
   25.96     1169
   26.38     1083
   26.8     1034
   27.22     1057
   27.64     1077
   28.06     1071
   28.48     1079
   28.9     1056
   29.32     1062
   29.74     1039
   30.16     1050
   30.58     1109
   31     1079
   31.42     1061
   31.84     1081
   32.26     1088
   32.68     1058
   33.1     1098
   33.52     1067
   33.94     1073
   34.36     1097
   34.78     1026
   35.2     1110
   35.62     1138
   36.04     6574
   36.46     1128
   36.88     11225
   37.3     1196
   37.72     2255
   38.14     1098
   38.56     1081
   38.98     1065
   39.4     1067
   39.82     1067
   40.24     1032
   40.66     1110
   41.08     1080
   41.5     1048
   41.92     1080
   42.34     1074
   42.76     1093
   43.18     1053
   43.6     1044
   44.02     1054
   44.44     1114
   44.86     1060
   45.28     4658
   45.7     1149
   46.12     1079
   46.54     1070
   46.96     1047
   47.38     1097
   47.8     1069
   48.22     1093
   48.64     1109
   49.06     1052
   49.48     2075
   49.9     3149
   50.32     1170
   50.74     1092
   51.16     1113
   51.58     1082
   52     1521
   52.42     1093
   52.84     1107
   53.26     2669
   53.68     1143
   54.1     1008
   54.52     1078
   54.94     1082
   55.36     1104
   55.78     1045
   56.2     1009
   56.62     1024
   57.04     1019
   57.46     1089
   57.88     2191
   58.3     1037
   58.72     1068
   59.14     1266
   59.56     1040
   59.98     1029
   60.4     1592
   60.82     1059
   61.24     1008
   61.66     1042
   62.08     1026
   62.5     1032
   62.92     1047
   63.34     1001
   63.76     1037
   64.18     1041
   64.6     1013
   65.02     1036
   65.44     1060
   65.86     1131
   66.28     1754
   66.7     1080
   67.12     1019
   67.54     1874
   67.96     1054
   68.38     1016
   68.8     1040
   69.22     1361
   69.64     1060
   70.06     1069
   70.48     1034
   70.9     1125
   71.32     1040
   71.74     1036
   72.16     1099
   72.58     2090
   73     1034
   73.42     1040
   73.84     1055
   74.26     1080
   74.68     1014
   75.1     1153
   75.52     1019
   75.94     1073
   76.36     1167
   76.78     1127
   77.2     1030
   77.62     1343
   78.04     1333
   78.46     1461
   78.88     1199
   79.3     1079
   79.72     1069
   80.14     1087
   80.56     1127
   80.98     1035
   81.4     1034
   81.82     1051
   82.24     1041
   82.66     1064
   83.08     1075
   83.5     1052
   83.92     1037
   84.34     1042
   84.76     1037
   85.18     1062
   85.6     1013
   86.02     993
   86.44     1047
   86.86     1083
   87.28     1445
   87.7     1087
   88.12     1045
   88.54     1059
   88.96     1117
   89.38     1062
   89.8     1023
   90.22     1033
   90.64     1047
   91.06     1019
   91.48     1052
   91.9     1039
   92.32     1023
   92.74     1035
   93.16     1035
   93.58     1598
   94     1146
   94.42     1064
   94.84     1109
   95.26     1054
   95.68     1037
   96.1     1035
   96.52     1047
   96.94     1062
   97.36     1190
   97.78     1544
   98.2     1081
   98.62     1003
   99.04     1049
   99.46     1053
   99.88     1020
   100.3     1049
   100.72     1107
   101.14     1231
   101.56     1038
   101.98     1105
   102.4     1128
   102.82     1068
   103.24     1063
   103.66     1064
   104.08     1065
   104.5     1070
   104.92     1054
   105.34     1054
   105.76     1038
   106.18     1037
   106.6     1034
   107.02     1200
   107.44     1066
   107.86     1063
   108.28     1023
   108.7     1024
   109.12     1024
   109.54     1045
   109.96     1066
   110.38     1096
   110.8     1081
   111.22     1073
   111.64     1037
   112.06     1066
   112.48     1107
   112.9     1706
   113.32     1407
   113.74     1082
   114.16     1041
   114.58     1063
   115     1112
   115.42     1282
   115.84     1383
   116.26     1042
   116.68     1189
   117.1     1136
   117.52     1075
   117.94     1078
   118.36     1047
   118.78     1143
   119.2     1163
   119.62     1214
   120.04     1020
   120.46     1054
   120.88     1037
   121.3     1056
   121.72     1069
   122.14     1093
   122.56     1273
   122.98     1398
   123.4     1109
   123.82     1048
   124.24     1072
   124.66     1090
   125.08     1058
   125.5     1100
   125.92     1156
   126.34     1074
   126.76     1127
   127.18     1037
   127.6     1089
   128.02     1050
   128.44     1049
   128.86     1074
   129.28     1053
   129.7     1065
   130.12     1042
   130.54     1111
   130.96     1182
   131.38     1099
   131.8     1208
   132.22     1069
   132.64     1080
   133.06     1056
   133.48     1041
   133.9     1205
   134.32     1092
   134.74     1093
   135.02     1051