Folder: awesome_pxrd2xtal_generation/exp_pxrd_data/crystalyze/Rh3Bi

Note: README.md
<img src="assets/logo.png" width="300">

#

[![Awesome](https://awesome.re/badge.svg)](https://awesome.re)
[![License: CC BY 4.0](https://img.shields.io/badge/License-CC_BY_4.0-lightgrey.svg)](LICENSE)



Powder X-ray diffraction (PXRD) structure determination is an ill-posed inverse problem traditionally addressed through indexing and Rietveld refinement. Recent generative models offer a revolutionary approach by directly mapping 1D diffraction patterns to 3D crystal structures. This repository curates open-source models and related resources for the PXRD to crystal structure generation task.

## AI-assisted Curation

This repository adopts a new "AI-assisted" approach to content creation, hoping to overcome the limitations of traditional human-based research information collection. We will employ advanced reasoning models and AI research tools to generate comprehensive content, followed by careful human review and refinement. All AI-generated responses, procedures, and modifications will be documented in a transparent protocol along with each update.

## Beyond Curation

Unlike typical "awesome" repositories that merely list resources, we try to solve the "last mile delivery" issue by providing inference scripts. Currently some tested inference scripts are available for selected models in the `inference` folder:

| Model | Local Inference | Cloud Inference | Utils/Support | Environment |
|-------|-----------------|-----------------|---------------|-------------|
| **Uni3DAR** | `uni3dar_inference.py` | `uni3dar_modal.py` | N/A | `uni3dar_env.yml` |
| **PXRDnet** | `pxrdnet_inference.py` | `pxrdnet_modal.py` | N/A | `pxrdnet_env.yml` |
| **deCIFer** | `decifer_inference.py` | N/A | `decifer_utils.py` | `decifer_env.yml` |
| **Crystalyze** | `crystalyze_inference.py` | N/A | `crystalyze_utils.py` | `crystalyze_env.yml` |
| **DiffractGPT** | `diffractgpt_inference.py` | `diffractgpt_modal.py` |  N/A |  N/A |

Additionally, `parse_cifs.py` in the `utils` folder provides general utilities for parsing and processing CIF files that contains experimental PXRD patterns across different models. We are planning to add more utility scripts in the future. Besides, we are investigating using latest automatic coding agents to update/develop those inference scripts automatically.


## Models

| Model           | Year | Method / Architecture                               | Reported Performance†            | Paper                                             | Implementation                                                 |
| --------------- | ---- | --------------------------------------------------- | -------------------------------- | ------------------------------------------------- | -------------------------------------------------------------- |
| **DeepStruc**   | 2023 | Conditional VAE on PDF data                         | Correct for 7 nanoparticle types | [*Digit. Discov.*](https://pubs.rsc.org/en/content/articlelanding/2023/dd/d2dd00086e)             

File: Rh_Bi_postheat_minigrid_12_017_Rh_3.7513_MgO_4.0840.xy
1.04218  29.2198
1.1631  34.5356
1.28402  210.009
1.40494  1421.48
1.52586  1677.17
1.64678  1782.77
1.7677  1828.87
1.88862  1925.8
2.00954  2011.39
2.13047  2051.76
2.25139  2098.3
2.37231  2124.79
2.49323  2163.12
2.61415  2187.09
2.73507  2206.25
2.85599  2209.25
2.97691  2218.98
3.09784  2232.59
3.21876  2233.31
3.33968  2239.01
3.4606  2227.03
3.58152  2231.85
3.70244  2235.39
3.82336  2233.1
3.94428  2224.93
4.0652  2229.84
4.18613  2232.39
4.30705  2228.5
4.42797  2245.82
4.54889  2234.81
4.66981  2228.97
4.79073  2230.93
4.91165  2228.5
5.03257  2239.79
5.15349  2236.18
5.27442  2236.54
5.39534  2257.75
5.51626  2268.3
5.63718  2252.66
5.7581  2252.4
5.87902  2324.74
5.99994  2391.5
6.12086  2285.28
6.24179  2275.6
6.36271  2275.48
6.48363  2286.04
6.60455  2284
6.72547  2290.04
6.84639  2295.56
6.96731  2301.13
7.08823  2307.56
7.20915  2313.07
7.33008  2318.12
7.451  2327.98
7.57192  2334.57
7.69284  2345.52
7.81376  2349.1
7.93468  2358.04
8.0556  2365.18
8.17652  2375.65
8.29744  2390.38
8.41837  2728.2
8.53929  2402.95
8.66021  2411.59
8.78113  2421.64
8.90205  2467.12
9.02297  4171.02
9.14389  2547.17
9.26481  2463.27
9.38574  2468.1
9.50666  2475.76
9.62758  2480.2
9.7485  2484.21
9.86942  2508.35
9.99034  2538.78
10.1113  2565.91
10.2322  3413.55
10.3531  4254.55
10.474  2712.64
10.5949  2713.6
10.7159  3357.38
10.8368  7176.67
10.9577  2655.14
11.0786  2613.58
11.1996  2621.02
11.3205  2678.11
11.4414  4793.53
11.5623  3291.83
11.6832  2701.77
11.8042  2903.06
11.9251  4010.71
12.046  2750.26
12.1669  2701.09
12.2878  2756.52
12.4088  3342.98
12.5297  5261.02
12.6506  2751.14
12.7715  2821.31
12.8924  2741.16
13.0134  2723.67
13.1343  2721.31
13.2552  2812.61
13.3761  2788.66
13.4971  2735.66
13.618  2739.32
13.7389  2745.19
13.8598  2750.8
13.9807  2758.07
14.1017  2759.54
14.2226  2775.12
14.3435  2800.16
14.4644  2805.22
14.5853  2972.44
14.7063  2816.75
14.8272  2818.98
14.9481  2824.95
15.069  2847.84
15.19  2844.68
15.3109  2862.95
15.4318  2877.22
15.5527  2903.16
15.6736  3287.36
15.7946  2955.81
15.9155  2917.98
16.0364  2918.55
16.1573  3010.15
16.2782  3847.73
16.3992  2981.18
16.5201  2938.03
16.641  2952.79
16.7619  3146.24
16.8828  4080.1
17.0038  3011.39
17.1247  2969.45
17.2456  2966.87
17.3665  2977.05
17.4875  3029.53
17.6084  3187.75
17.7293  3942.01
17.8502  3098.1
17.9711  3033.93
18.0921  3113.44
18.213  3062.4
18.3339  3031.16
18.4548  3032.24
18.5757  3032.56
18.6967  3048.62
18.8176  3140.82
18.9385  3082.04
19.0594  3147.07
19.1803  3091.13
19.3013  3059.2
19.4222  3067.9
19.5431  3088.3
19.664  3208.61
19.785  4348.05
19.9059  3363.98
20.0268  3154.77
20.1477  3128.06
20.2686  3230.51
20.3896  3152.56
20.5105  3170.06
20.6314  3489.84
20.7523  4371.77
20.8732  4009.95
20.9942  3153.52
21.1151  3140.42
21.236  3146.22
21.3569  3167.18
21.4779  3238.6
21.5988  3687.87
21.7197  4352.97
21.8406  4067.32
21.9615  3691.41
22.0825  3233.23
22.2034  3212.01
22.3243  3241.77
22.4452  3184.11
22.5661  3163.36
22.6871  3188.22
22.808  3168.79
22.9289  3172.05
23.0498  3210.54
23.1707  3177.03
23.2917  3157.98
23.4126  3160.53
23.5335  3163.05
23.6544  3167.48
23.7754  3202.67
23.8963  3289.39
24.0172  3363.73
24.1381  3288.48
24.259  3205.34
24.38  3204.9
24.5009  3203.51
24.6218  3240.52
24.7427  3243.67
24.8636  3232.02
24.9846  3245.29
25.1055  3329.84
25.2264  3367.18
25.3473  3262.82
25.4682  3259.57
25.5892  3248.85
25.7101  3268.8
25.831  3415.98
25.9519  3352.65
26.0729  3680.64
26.1938  3464.49
26.3147  3300.23
26.4356  3271.79
26.5565  3282.78
26.6775  3367.22
26.7984  3659.56
26.9193  3374.66
27.0402  3314.25
27.1611  3320.42
27.2821  3373.92
27.403  3749.23
27.5239  3914.64
27.6448  3331.51
27.7658  3323.97
27.8867  3349.63
28.0076  3410.87
28.1285  3648.66
28.2494  3613
28.3704  3489.69
28.4913  3369.74
28.6122  3347.84
28.7331  3362.65
28.854  3403.48
28.975  3382.95
29.0959  3375.67
29.2168  3409.46
29.3377  3536.58
29.4586  3608.24
29.5796  3433.78
29.7005  3419.01
29.8214  3412.41
29.9423  3422.33
30.0633  3448.25
30.1842  3455.53
30.3051  3485.68
30.426  3464.53
30.5469  3509.65
30.6679  3565.31
30.7888  3652.05
30.9097  4325.31
31.0306  3936.89
31.1515  3821.47
31.2725  4282.53
31.3934  4191.72
31.474  3889.75