Folder: awesome_pxrd2xtal_generation/exp_pxrd_data/crystalyze/RuBi2

Note: README.md
<img src="assets/logo.png" width="300">

#

[![Awesome](https://awesome.re/badge.svg)](https://awesome.re)
[![License: CC BY 4.0](https://img.shields.io/badge/License-CC_BY_4.0-lightgrey.svg)](LICENSE)



Powder X-ray diffraction (PXRD) structure determination is an ill-posed inverse problem traditionally addressed through indexing and Rietveld refinement. Recent generative models offer a revolutionary approach by directly mapping 1D diffraction patterns to 3D crystal structures. This repository curates open-source models and related resources for the PXRD to crystal structure generation task.

## AI-assisted Curation

This repository adopts a new "AI-assisted" approach to content creation, hoping to overcome the limitations of traditional human-based research information collection. We will employ advanced reasoning models and AI research tools to generate comprehensive content, followed by careful human review and refinement. All AI-generated responses, procedures, and modifications will be documented in a transparent protocol along with each update.

## Beyond Curation

Unlike typical "awesome" repositories that merely list resources, we try to solve the "last mile delivery" issue by providing inference scripts. Currently some tested inference scripts are available for selected models in the `inference` folder:

| Model | Local Inference | Cloud Inference | Utils/Support | Environment |
|-------|-----------------|-----------------|---------------|-------------|
| **Uni3DAR** | `uni3dar_inference.py` | `uni3dar_modal.py` | N/A | `uni3dar_env.yml` |
| **PXRDnet** | `pxrdnet_inference.py` | `pxrdnet_modal.py` | N/A | `pxrdnet_env.yml` |
| **deCIFer** | `decifer_inference.py` | N/A | `decifer_utils.py` | `decifer_env.yml` |
| **Crystalyze** | `crystalyze_inference.py` | N/A | `crystalyze_utils.py` | `crystalyze_env.yml` |
| **DiffractGPT** | `diffractgpt_inference.py` | `diffractgpt_modal.py` |  N/A |  N/A |

Additionally, `parse_cifs.py` in the `utils` folder provides general utilities for parsing and processing CIF files that contains experimental PXRD patterns across different models. We are planning to add more utility scripts in the future. Besides, we are investigating using latest automatic coding agents to update/develop those inference scripts automatically.


## Models

| Model           | Year | Method / Architecture                               | Reported Performance†            | Paper                                             | Implementation                                                 |
| --------------- | ---- | --------------------------------------------------- | -------------------------------- | ------------------------------------------------- | -------------------------------------------------------------- |
| **DeepStruc**   | 2023 | Conditional VAE on PDF data                         | Correct for 7 nanoparticle types | [*Digit. Discov.*](https://pubs.rsc.org/en/content/articlelanding/2023/dd/d2dd00086e)             

File: 2_Ru_Bi_postheat_widescan_grid_015.xy
1.10644  1356.59
1.22971  3052.88
1.35298  3554.88
1.47625  4420.77
1.59951  5415.95
1.72278  5815.55
1.84605  6288.9
1.96932  6742.55
2.09259  7058.35
2.21586  7293.88
2.33913  7514.7
2.4624  7734.87
2.58567  7855.24
2.70894  7949.07
2.8322  8029.37
2.95547  8063.59
3.07874  8090.3
3.20201  8098.97
3.32528  8091.9
3.44855  8076.98
3.57182  8069.07
3.69509  8037.23
3.81836  8024.04
3.94163  8000.31
4.0649  7978.94
4.18816  7945.82
4.31143  7949.44
4.4347  7935.4
4.55797  7896.29
4.68124  7896.24
4.80451  7948.78
4.92778  7940.56
5.05105  7937.4
5.17432  7910.38
5.29759  7894.67
5.42085  7896.66
5.54412  7897.46
5.66739  7908.8
5.79066  8013.73
5.91393  8092.1
6.0372  8086.72
6.16047  8066.24
6.28374  8089.2
6.40701  8110.72
6.53028  8134.57
6.65354  8155.06
6.77681  8195.59
6.90008  8232.99
7.02335  8252.26
7.14662  8304.21
7.26989  8363.21
7.39316  9367.47
7.51643  8438.65
7.6397  8483.41
7.76297  8532.65
7.88623  8587.2
8.0095  8658.15
8.13277  8877.15
8.25604  12375.5
8.37931  8884.63
8.50258  8868.84
8.62585  8895.46
8.74912  8976.21
8.87239  9087.24
8.99566  9261.38
9.11893  11307
9.24219  24361.9
9.36546  9484.05
9.48873  9573.69
9.612  9549.84
9.73527  12477.9
9.85854  9763.22
9.98181  9931.82
10.1051  9642.8
10.2283  13167.4
10.3516  9777.35
10.4749  10200.8
10.5982  9824.59
10.7214  9884.44
10.8447  9997.41
10.968  11236
11.0912  13234.7
11.2145  10273.5
11.3378  10454.7
11.461  11720.4
11.5843  63207.9
11.7076  15707.7
11.8308  10705.6
11.9541  10551.2
12.0774  10534.1
12.2007  10543
12.3239  10569.2
12.4472  10599.2
12.5705  10639.3
12.6937  10687.6
12.817  10783.8
12.9403  11034
13.0635  10932.4
13.1868  10883.9
13.3101  10935.9
13.4333  10952.8
13.5566  10997.9
13.6799  11048.1
13.8031  11095.8
13.9264  11179.7
14.0497  11194.5
14.173  11312.1
14.2962  11926.8
14.4195  11390.9
14.5428  11403.4
14.666  11523.8
14.7893  13308.4
14.9126  15331.1
15.0358  11734.6
15.1591  11952.4
15.2824  11820.2
15.4056  11780.7
15.5289  11823.9
15.6522  12522.9
15.7755  14762
15.8987  12724.2
16.022  12120.4
16.1453  12262.3
16.2685  12718.7
16.3918  26713.2
16.5151  16636.3
16.6383  12648.7
16.7616  12346.7
16.8849  13538.3
17.0081  13112.5
17.1314  12376.6
17.2547  12427.3
17.378  12466.5
17.5012  12565.7
17.6245  13309.3
17.7478  18300.4
17.871  12861.1
17.9943  12748.8
18.1176  12756.6
18.2408  12736
18.3641  12805.7
18.4874  12759.5
18.6106  12741
18.7339  12773.1
18.8572  12792.2
18.9804  12851.7
19.1037  12934.8
19.227  14316.7
19.3503  13476.5
19.4735  13219.6
19.5968  14106.4
19.7201  13680.5
19.8433  13002.2
19.9666  13046.6
20.0899  14173.4
20.2131  14230.6
20.3364  15070.9
20.4597  13931.8
20.5829  13647
20.7062  13313.8
20.8295  13201.5
20.9528  14452.9
21.076  13453.7
21.1993  13853.4
21.3226  13886.6
21.4458  13270
21.5691  13578.9
21.6924  13510.6
21.8156  14862.7
21.9389  14150.4
22.0622  13658
22.1854  14037.7
22.3087  14738.2
22.432  13665.9
22.5552  13492.4
22.6785  13454.1
22.8018  13687.1
22.9251  13468.9
23.0483  13374.2
23.1716  13683.9
23.2949  15470.9
23.4181  14492.8
23.5414  14441.1
23.6647  13708.5
23.7879  13609.9
23.9112  13391.9
24.0345  13622.8
24.1577  14073.4
24.281  13544.4
24.4043  13579.8
24.5276  13442.2
24.6508  13590.6
24.7741  13698.2
24.8974  14236
25.0206  13713.5
25.1439  13525.5
25.2672  13561.2
25.3904  13848.9
25.5137  13756.2
25.637  13690.6
25.7602  13990.7
25.8835  14081.6
26.0068  15514.6
26.1301  15601.1
26.2533  13830.1
26.3766  13661.3
26.4999  13667
26.6231  13789.7
26.7464  14043.8
26.8697  14234.6
26.9929  13756.3
27.1162  13695
27.2395  14192.9
27.3627  14043.9
27.486  13964.9
27.6093  13972.3
27.7325  14306.6
27.8558  15469
27.9791  14005.4
28.1024  14320.7
28.2256  14039.6
28.3489  14133.7
28.4722  14132.7
28.5954  14769.8
28.7187  14494.3
28.842  14083.8
28.9652  13993.6
29.0885  13919.3
29.2118  13920
29.335  14072.1
29.4583  14297.5
29.5816  14212.8
29.7049  13944.1
29.8281  13887.1
29.9514  13815.3
30.0747  13730.6
30.1979  13927.7
30.3212  14294.1
30.4445  14079
30.5677  13644.1
30.691  13605.1
30.8143  13608.1
30.9375  13674.7
31.0608  13563.8
31.1841  13542.4
31.3074  13561.7
31.4306  13624
31.5539  13989.3
31.6772  15860.4
31.8004  14200.8
31.9237  13959.5
32.047  14640
32.1702  15744.7
32.273  14731.6