Folder: awesome_pxrd2xtal_generation/exp_pxrd_data/crystalyze/ZrGe6Ni6

Note: README.md
<img src="assets/logo.png" width="300">

#

[![Awesome](https://awesome.re/badge.svg)](https://awesome.re)
[![License: CC BY 4.0](https://img.shields.io/badge/License-CC_BY_4.0-lightgrey.svg)](LICENSE)



Powder X-ray diffraction (PXRD) structure determination is an ill-posed inverse problem traditionally addressed through indexing and Rietveld refinement. Recent generative models offer a revolutionary approach by directly mapping 1D diffraction patterns to 3D crystal structures. This repository curates open-source models and related resources for the PXRD to crystal structure generation task.

## AI-assisted Curation

This repository adopts a new "AI-assisted" approach to content creation, hoping to overcome the limitations of traditional human-based research information collection. We will employ advanced reasoning models and AI research tools to generate comprehensive content, followed by careful human review and refinement. All AI-generated responses, procedures, and modifications will be documented in a transparent protocol along with each update.

## Beyond Curation

Unlike typical "awesome" repositories that merely list resources, we try to solve the "last mile delivery" issue by providing inference scripts. Currently some tested inference scripts are available for selected models in the `inference` folder:

| Model | Local Inference | Cloud Inference | Utils/Support | Environment |
|-------|-----------------|-----------------|---------------|-------------|
| **Uni3DAR** | `uni3dar_inference.py` | `uni3dar_modal.py` | N/A | `uni3dar_env.yml` |
| **PXRDnet** | `pxrdnet_inference.py` | `pxrdnet_modal.py` | N/A | `pxrdnet_env.yml` |
| **deCIFer** | `decifer_inference.py` | N/A | `decifer_utils.py` | `decifer_env.yml` |
| **Crystalyze** | `crystalyze_inference.py` | N/A | `crystalyze_utils.py` | `crystalyze_env.yml` |
| **DiffractGPT** | `diffractgpt_inference.py` | `diffractgpt_modal.py` |  N/A |  N/A |

Additionally, `parse_cifs.py` in the `utils` folder provides general utilities for parsing and processing CIF files that contains experimental PXRD patterns across different models. We are planning to add more utility scripts in the future. Besides, we are investigating using latest automatic coding agents to update/develop those inference scripts automatically.


## Models

| Model           | Year | Method / Architecture                               | Reported Performance†            | Paper                                             | Implementation                                                 |
| --------------- | ---- | --------------------------------------------------- | -------------------------------- | ------------------------------------------------- | -------------------------------------------------------------- |
| **DeepStruc**   | 2023 | Conditional VAE on PDF data                         | Correct for 7 nanoparticle types | [*Digit. Discov.*](https://pubs.rsc.org/en/content/articlelanding/2023/dd/d2dd00086e)             

File: Ge6_Ni6_Zr_raw.xy
   10     272
   10.32     268
   10.64     289
   10.96     297
   11.28     290
   11.6     267
   11.92     266
   12.24     228
   12.56     244
   12.88     257
   13.2     235
   13.52     251
   13.84     198
   14.16     178
   14.48     192
   14.8     166
   15.12     183
   15.44     186
   15.76     172
   16.08     202
   16.4     169
   16.72     164
   17.04     152
   17.36     176
   17.68     175
   18     156
   18.32     155
   18.64     162
   18.96     143
   19.28     153
   19.6     174
   19.92     189
   20.24     246
   20.56     175
   20.88     171
   21.2     174
   21.52     171
   21.84     148
   22.16     156
   22.48     181
   22.8     156
   23.12     159
   23.44     146
   23.76     128
   24.08     145
   24.4     154
   24.72     154
   25.04     147
   25.36     137
   25.68     136
   26     136
   26.32     144
   26.64     138
   26.96     132
   27.28     142
   27.6     118
   27.92     134
   28.24     140
   28.56     136
   28.88     141
   29.2     129
   29.52     128
   29.84     138
   30.16     169
   30.48     142
   30.8     137
   31.12     146
   31.44     135
   31.76     130
   32.08     150
   32.4     134
   32.72     147
   33.04     169
   33.36     179
   33.68     519
   34     279
   34.32     199
   34.64     255
   34.96     525
   35.28     9182
   35.6     720
   35.92     249
   36.24     198
   36.56     184
   36.88     142
   37.2     206
   37.52     167
   37.84     161
   38.16     164
   38.48     170
   38.8     200
   39.12     229
   39.44     642
   39.76     2008
   40.08     325
   40.4     268
   40.72     715
   41.04     4146
   41.36     550
   41.68     574
   42     2141
   42.32     3367
   42.64     466
   42.96     234
   43.28     198
   43.6     192
   43.92     210
   44.24     229
   44.56     479
   44.88     405
   45.2     299
   45.52     1814
   45.84     624
   46.16     357
   46.48     337
   46.8     530
   47.12     6225
   47.44     886
   47.76     308
   48.08     207
   48.4     197
   48.72     168
   49.04     202
   49.36     296
   49.68     1448
   50     420
   50.32     1700
   50.64     317
   50.96     166
   51.28     153
   51.6     118
   51.92     114
   52.24     127
   52.56     120
   52.88     123
   53.2     141
   53.52     140
   53.84     240
   54.16     967
   54.48     211
   54.8     163
   55.12     119
   55.44     139
   55.76     124
   56.08     128
   56.4     129
   56.72     147
   57.04     125
   57.36     124
   57.68     114
   58     122
   58.32     141
   58.64     176
   58.96     431
   59.28     174
   59.6     154
   59.92     117
   60.24     125
   60.56     111
   60.88     153
   61.2     113
   61.52     130
   61.84     142
   62.16     161
   62.48     166
   62.8     229
   63.12     444
   63.44     809
   63.76     246
   64.08     171
   64.4     142
   64.72     127
   65.04     129
   65.36     158
   65.68     178
   66     348
   66.32     873
   66.64     283
   66.96     162
   67.28     190
   67.6     223
   67.92     677
   68.24     1283
   68.56     237
   68.88     162
   69.2     166
   69.52     138
   69.84     147
   70.16     116
   70.48     114
   70.8     109
   71.12     174
   71.44     145
   71.76     129
   72.08     134
   72.4     135
   72.72     143
   73.04     188
   73.36     195
   73.68     436
   74     457
   74.32     841
   74.64     2076
   74.96     725
   75.28     249
   75.6     196
   75.92     155
   76.24     158
   76.56     147
   76.88     130
   77.2     150
   77.52     130
   77.84     124
   78.16     128
   78.48     127
   78.8     127
   79.12     131
   79.44     129
   79.76     132
   80.08     138
   80.4     129
   80.72     147
   81.04     164
   81.36     311
   81.68     542
   82     836
   82.32     369
   82.64     200
   82.96     159
   83.28     155
   83.6     157
   83.92     161
   84.24     229
   84.56     250
   84.88     181
   85.2     157
   85.52     231
   85.84     174
   86.16     125
   86.48     122
   86.8     113
   87.12     128
   87.44     142
   87.76     214
   88.08     338
   88.4     236
   88.72     279
   89.04     242
   89.36     172
   89.68     149
   90     154
   90.32     142
   90.64     156
   90.96     159
   91.28     185
   91.6     235
   91.92     679
   92.24     595
   92.56     254
   92.88     277
   93.2     479
   93.52     314
   93.84     167
   94.16     124
   94.48     132
   94.8     158
   95.12     163
   95.44     300
   95.76     318
   96.08     232
   96.4     159
   96.72     135
   97.04     133
   97.36     127
   97.68     136
   98     106
   98.32     168
   98.64     188
   98.96     182
   99.28     100
   99.6     145
   99.92     147
   100     110